[{"annotation":"good","response":88,"config":61,"stimulus":"test_stims/61.webm","trial_type":"custom-video-form-inputs","trial_index":1,"time_elapsed":12621,"internal_node_id":"0.0-1.0","user":"sonia"},{"annotation":"good","response":65,"config":62,"stimulus":"test_stims/62.webm","trial_type":"custom-video-form-inputs","trial_index":2,"time_elapsed":22551,"internal_node_id":"0.0-2.0","user":"sonia"},{"annotation":"good","response":50,"config":63,"stimulus":"test_stims/63.webm","trial_type":"custom-video-form-inputs","trial_index":3,"time_elapsed":34554,"internal_node_id":"0.0-3.0","user":"sonia"},{"annotation":"good","response":55,"config":64,"stimulus":"test_stims/64.webm","trial_type":"custom-video-form-inputs","trial_index":4,"time_elapsed":45365,"internal_node_id":"0.0-4.0","user":"sonia"},{"annotation":"good","response":40,"config":65,"stimulus":"test_stims/65.webm","trial_type":"custom-video-form-inputs","trial_index":5,"time_elapsed":57608,"internal_node_id":"0.0-5.0","user":"sonia"},{"annotation":"good","response":5,"config":66,"stimulus":"test_stims/66.webm","trial_type":"custom-video-form-inputs","trial_index":6,"time_elapsed":67591,"internal_node_id":"0.0-6.0","user":"sonia"},{"annotation":"good","response":77,"config":67,"stimulus":"test_stims/67.webm","trial_type":"custom-video-form-inputs","trial_index":7,"time_elapsed":77197,"internal_node_id":"0.0-7.0","user":"sonia"},{"annotation":"good","response":78,"config":68,"stimulus":"test_stims/68.webm","trial_type":"custom-video-form-inputs","trial_index":8,"time_elapsed":87929,"internal_node_id":"0.0-8.0","user":"sonia"},{"annotation":"good","response":80,"config":69,"stimulus":"test_stims/69.webm","trial_type":"custom-video-form-inputs","trial_index":9,"time_elapsed":100173,"internal_node_id":"0.0-9.0","user":"sonia"},{"annotation":"good","response":1,"config":70,"stimulus":"test_stims/70.webm","trial_type":"custom-video-form-inputs","trial_index":10,"time_elapsed":109768,"internal_node_id":"0.0-10.0","user":"sonia"},{"annotation":"good","response":1,"config":71,"stimulus":"test_stims/71.webm","trial_type":"custom-video-form-inputs","trial_index":11,"time_elapsed":119320,"internal_node_id":"0.0-11.0","user":"sonia"},{"annotation":"good","response":10,"config":72,"stimulus":"test_stims/72.webm","trial_type":"custom-video-form-inputs","trial_index":12,"time_elapsed":130353,"internal_node_id":"0.0-12.0","user":"sonia"},{"annotation":"good","response":66,"config":73,"stimulus":"test_stims/73.webm","trial_type":"custom-video-form-inputs","trial_index":13,"time_elapsed":141171,"internal_node_id":"0.0-13.0","user":"sonia"},{"annotation":"good","response":88,"config":74,"stimulus":"test_stims/74.webm","trial_type":"custom-video-form-inputs","trial_index":14,"time_elapsed":151248,"internal_node_id":"0.0-14.0","user":"sonia"},{"annotation":"good","response":18,"config":75,"stimulus":"test_stims/75.webm","trial_type":"custom-video-form-inputs","trial_index":15,"time_elapsed":162858,"internal_node_id":"0.0-15.0","user":"sonia"},{"annotation":"good","response":77,"config":76,"stimulus":"test_stims/76.webm","trial_type":"custom-video-form-inputs","trial_index":16,"time_elapsed":171708,"internal_node_id":"0.0-16.0","user":"sonia"},{"annotation":"good","response":86,"config":77,"stimulus":"test_stims/77.webm","trial_type":"custom-video-form-inputs","trial_index":17,"time_elapsed":181911,"internal_node_id":"0.0-17.0","user":"sonia"},{"annotation":"good","response":72,"config":78,"stimulus":"test_stims/78.webm","trial_type":"custom-video-form-inputs","trial_index":18,"time_elapsed":193663,"internal_node_id":"0.0-18.0","user":"sonia"},{"annotation":"good","response":83,"config":79,"stimulus":"test_stims/79.webm","trial_type":"custom-video-form-inputs","trial_index":19,"time_elapsed":206830,"internal_node_id":"0.0-19.0","user":"sonia"},{"annotation":"good","response":63,"config":80,"stimulus":"test_stims/80.webm","trial_type":"custom-video-form-inputs","trial_index":20,"time_elapsed":217374,"internal_node_id":"0.0-20.0","user":"sonia"}]