[{"annotation":"good","response":80,"config":41,"stimulus":"test_stims/41.webm","trial_type":"custom-video-form-inputs","trial_index":1,"time_elapsed":13276,"internal_node_id":"0.0-1.0","user":"mike"},{"annotation":"good","response":95,"config":42,"stimulus":"test_stims/42.webm","trial_type":"custom-video-form-inputs","trial_index":2,"time_elapsed":23692,"internal_node_id":"0.0-2.0","user":"mike"},{"annotation":"good","response":75,"config":43,"stimulus":"test_stims/43.webm","trial_type":"custom-video-form-inputs","trial_index":3,"time_elapsed":31836,"internal_node_id":"0.0-3.0","user":"mike"},{"annotation":"good","response":80,"config":44,"stimulus":"test_stims/44.webm","trial_type":"custom-video-form-inputs","trial_index":4,"time_elapsed":41052,"internal_node_id":"0.0-4.0","user":"mike"},{"annotation":"good","response":90,"config":45,"stimulus":"test_stims/45.webm","trial_type":"custom-video-form-inputs","trial_index":5,"time_elapsed":51220,"internal_node_id":"0.0-5.0","user":"mike"},{"annotation":"good","response":90,"config":46,"stimulus":"test_stims/46.webm","trial_type":"custom-video-form-inputs","trial_index":6,"time_elapsed":63557,"internal_node_id":"0.0-6.0","user":"mike"},{"annotation":"good","response":95,"config":47,"stimulus":"test_stims/47.webm","trial_type":"custom-video-form-inputs","trial_index":7,"time_elapsed":73637,"internal_node_id":"0.0-7.0","user":"mike"},{"annotation":"good","response":95,"config":48,"stimulus":"test_stims/48.webm","trial_type":"custom-video-form-inputs","trial_index":8,"time_elapsed":86861,"internal_node_id":"0.0-8.0","user":"mike"},{"annotation":"good","response":90,"config":49,"stimulus":"test_stims/49.webm","trial_type":"custom-video-form-inputs","trial_index":9,"time_elapsed":96790,"internal_node_id":"0.0-9.0","user":"mike"},{"annotation":"good","response":80,"config":50,"stimulus":"test_stims/50.webm","trial_type":"custom-video-form-inputs","trial_index":10,"time_elapsed":106140,"internal_node_id":"0.0-10.0","user":"mike"},{"annotation":"good","response":65,"config":51,"stimulus":"test_stims/51.webm","trial_type":"custom-video-form-inputs","trial_index":11,"time_elapsed":116838,"internal_node_id":"0.0-11.0","user":"mike"},{"annotation":"good","response":70,"config":52,"stimulus":"test_stims/52.webm","trial_type":"custom-video-form-inputs","trial_index":12,"time_elapsed":128422,"internal_node_id":"0.0-12.0","user":"mike"},{"annotation":"good","response":75,"config":53,"stimulus":"test_stims/53.webm","trial_type":"custom-video-form-inputs","trial_index":13,"time_elapsed":138991,"internal_node_id":"0.0-13.0","user":"mike"},{"annotation":"good","response":60,"config":54,"stimulus":"test_stims/54.webm","trial_type":"custom-video-form-inputs","trial_index":14,"time_elapsed":149733,"internal_node_id":"0.0-14.0","user":"mike"},{"annotation":"good","response":70,"config":55,"stimulus":"test_stims/55.webm","trial_type":"custom-video-form-inputs","trial_index":15,"time_elapsed":160358,"internal_node_id":"0.0-15.0","user":"mike"},{"annotation":"good","response":80,"config":56,"stimulus":"test_stims/56.webm","trial_type":"custom-video-form-inputs","trial_index":16,"time_elapsed":171215,"internal_node_id":"0.0-16.0","user":"mike"},{"annotation":"good","response":55,"config":57,"stimulus":"test_stims/57.webm","trial_type":"custom-video-form-inputs","trial_index":17,"time_elapsed":182223,"internal_node_id":"0.0-17.0","user":"mike"},{"annotation":"good","response":80,"config":58,"stimulus":"test_stims/58.webm","trial_type":"custom-video-form-inputs","trial_index":18,"time_elapsed":192656,"internal_node_id":"0.0-18.0","user":"mike"},{"annotation":"good","response":65,"config":59,"stimulus":"test_stims/59.webm","trial_type":"custom-video-form-inputs","trial_index":19,"time_elapsed":202601,"internal_node_id":"0.0-19.0","user":"mike"},{"annotation":"good","response":35,"config":60,"stimulus":"test_stims/60.webm","trial_type":"custom-video-form-inputs","trial_index":20,"time_elapsed":217656,"internal_node_id":"0.0-20.0","user":"mike"}]