[{"annotation":"good","response":25,"config":81,"stimulus":"test_stims/81.webm","trial_type":"custom-video-form-inputs","trial_index":1,"time_elapsed":13940,"internal_node_id":"0.0-1.0","user":"sonia"},{"annotation":"good","response":4,"config":82,"stimulus":"test_stims/82.webm","trial_type":"custom-video-form-inputs","trial_index":2,"time_elapsed":23217,"internal_node_id":"0.0-2.0","user":"sonia"},{"annotation":"good","response":36,"config":83,"stimulus":"test_stims/83.webm","trial_type":"custom-video-form-inputs","trial_index":3,"time_elapsed":32887,"internal_node_id":"0.0-3.0","user":"sonia"},{"annotation":"good","response":11,"config":84,"stimulus":"test_stims/84.webm","trial_type":"custom-video-form-inputs","trial_index":4,"time_elapsed":41440,"internal_node_id":"0.0-4.0","user":"sonia"},{"annotation":"good","response":36,"config":85,"stimulus":"test_stims/85.webm","trial_type":"custom-video-form-inputs","trial_index":5,"time_elapsed":51314,"internal_node_id":"0.0-5.0","user":"sonia"},{"annotation":"good","response":48,"config":86,"stimulus":"test_stims/86.webm","trial_type":"custom-video-form-inputs","trial_index":6,"time_elapsed":61127,"internal_node_id":"0.0-6.0","user":"sonia"},{"annotation":"good","response":42,"config":87,"stimulus":"test_stims/87.webm","trial_type":"custom-video-form-inputs","trial_index":7,"time_elapsed":71103,"internal_node_id":"0.0-7.0","user":"sonia"},{"annotation":"good","response":50,"config":88,"stimulus":"test_stims/88.webm","trial_type":"custom-video-form-inputs","trial_index":8,"time_elapsed":80484,"internal_node_id":"0.0-8.0","user":"sonia"},{"annotation":"good","response":24,"config":89,"stimulus":"test_stims/89.webm","trial_type":"custom-video-form-inputs","trial_index":9,"time_elapsed":94565,"internal_node_id":"0.0-9.0","user":"sonia"},{"annotation":"good","response":66,"config":90,"stimulus":"test_stims/90.webm","trial_type":"custom-video-form-inputs","trial_index":10,"time_elapsed":105243,"internal_node_id":"0.0-10.0","user":"sonia"},{"annotation":"good","response":70,"config":91,"stimulus":"test_stims/91.webm","trial_type":"custom-video-form-inputs","trial_index":11,"time_elapsed":115996,"internal_node_id":"0.0-11.0","user":"sonia"},{"annotation":"good","response":70,"config":92,"stimulus":"test_stims/92.webm","trial_type":"custom-video-form-inputs","trial_index":12,"time_elapsed":126618,"internal_node_id":"0.0-12.0","user":"sonia"},{"annotation":"good","response":15,"config":93,"stimulus":"test_stims/93.webm","trial_type":"custom-video-form-inputs","trial_index":13,"time_elapsed":136243,"internal_node_id":"0.0-13.0","user":"sonia"},{"annotation":"good","response":30,"config":94,"stimulus":"test_stims/94.webm","trial_type":"custom-video-form-inputs","trial_index":14,"time_elapsed":146772,"internal_node_id":"0.0-14.0","user":"sonia"},{"annotation":"good","response":50,"config":95,"stimulus":"test_stims/95.webm","trial_type":"custom-video-form-inputs","trial_index":15,"time_elapsed":156012,"internal_node_id":"0.0-15.0","user":"sonia"},{"annotation":"good","response":60,"config":96,"stimulus":"test_stims/96.webm","trial_type":"custom-video-form-inputs","trial_index":16,"time_elapsed":166951,"internal_node_id":"0.0-16.0","user":"sonia"},{"annotation":"good","response":60,"config":97,"stimulus":"test_stims/97.webm","trial_type":"custom-video-form-inputs","trial_index":17,"time_elapsed":178685,"internal_node_id":"0.0-17.0","user":"sonia"},{"annotation":"good","response":40,"config":98,"stimulus":"test_stims/98.webm","trial_type":"custom-video-form-inputs","trial_index":18,"time_elapsed":188082,"internal_node_id":"0.0-18.0","user":"sonia"},{"annotation":"good","response":20,"config":99,"stimulus":"test_stims/99.webm","trial_type":"custom-video-form-inputs","trial_index":19,"time_elapsed":197849,"internal_node_id":"0.0-19.0","user":"sonia"},{"annotation":"good","response":19,"config":100,"stimulus":"test_stims/100.webm","trial_type":"custom-video-form-inputs","trial_index":20,"time_elapsed":208064,"internal_node_id":"0.0-20.0","user":"sonia"}]