[{"annotation":"good","response":5,"config":1,"stimulus":"test_stims/1.webm","trial_type":"custom-video-form-inputs","trial_index":1,"time_elapsed":18761,"internal_node_id":"0.0-1.0","user":"mike"},{"annotation":"good","response":30,"config":2,"stimulus":"test_stims/2.webm","trial_type":"custom-video-form-inputs","trial_index":2,"time_elapsed":28979,"internal_node_id":"0.0-2.0","user":"mike"},{"annotation":"good","response":5,"config":3,"stimulus":"test_stims/3.webm","trial_type":"custom-video-form-inputs","trial_index":3,"time_elapsed":48699,"internal_node_id":"0.0-3.0","user":"mike"},{"annotation":"good","response":60,"config":4,"stimulus":"test_stims/4.webm","trial_type":"custom-video-form-inputs","trial_index":4,"time_elapsed":58796,"internal_node_id":"0.0-4.0","user":"mike"},{"annotation":"good","response":80,"config":5,"stimulus":"test_stims/5.webm","trial_type":"custom-video-form-inputs","trial_index":5,"time_elapsed":70804,"internal_node_id":"0.0-5.0","user":"mike"},{"annotation":"good","response":30,"config":6,"stimulus":"test_stims/6.webm","trial_type":"custom-video-form-inputs","trial_index":6,"time_elapsed":80580,"internal_node_id":"0.0-6.0","user":"mike"},{"annotation":"good","response":25,"config":7,"stimulus":"test_stims/7.webm","trial_type":"custom-video-form-inputs","trial_index":7,"time_elapsed":90805,"internal_node_id":"0.0-7.0","user":"mike"},{"annotation":"good","response":70,"config":8,"stimulus":"test_stims/8.webm","trial_type":"custom-video-form-inputs","trial_index":8,"time_elapsed":102459,"internal_node_id":"0.0-8.0","user":"mike"},{"annotation":"good","response":50,"config":9,"stimulus":"test_stims/9.webm","trial_type":"custom-video-form-inputs","trial_index":9,"time_elapsed":117949,"internal_node_id":"0.0-9.0","user":"mike"},{"annotation":"good","response":80,"config":10,"stimulus":"test_stims/10.webm","trial_type":"custom-video-form-inputs","trial_index":10,"time_elapsed":163335,"internal_node_id":"0.0-10.0","user":"mike"},{"annotation":"good","response":75,"config":11,"stimulus":"test_stims/11.webm","trial_type":"custom-video-form-inputs","trial_index":11,"time_elapsed":175072,"internal_node_id":"0.0-11.0","user":"mike"},{"annotation":"good","response":35,"config":12,"stimulus":"test_stims/12.webm","trial_type":"custom-video-form-inputs","trial_index":12,"time_elapsed":185871,"internal_node_id":"0.0-12.0","user":"mike"},{"annotation":"good","response":50,"config":13,"stimulus":"test_stims/13.webm","trial_type":"custom-video-form-inputs","trial_index":13,"time_elapsed":287377,"internal_node_id":"0.0-13.0","user":"mike"},{"annotation":"good","response":55,"config":14,"stimulus":"test_stims/14.webm","trial_type":"custom-video-form-inputs","trial_index":14,"time_elapsed":296737,"internal_node_id":"0.0-14.0","user":"mike"},{"annotation":"good","response":90,"config":15,"stimulus":"test_stims/15.webm","trial_type":"custom-video-form-inputs","trial_index":15,"time_elapsed":306626,"internal_node_id":"0.0-15.0","user":"mike"},{"annotation":"good","response":80,"config":16,"stimulus":"test_stims/16.webm","trial_type":"custom-video-form-inputs","trial_index":16,"time_elapsed":318360,"internal_node_id":"0.0-16.0","user":"mike"},{"annotation":"good","response":95,"config":17,"stimulus":"test_stims/17.webm","trial_type":"custom-video-form-inputs","trial_index":17,"time_elapsed":328953,"internal_node_id":"0.0-17.0","user":"mike"},{"annotation":"good","response":65,"config":18,"stimulus":"test_stims/18.webm","trial_type":"custom-video-form-inputs","trial_index":18,"time_elapsed":339762,"internal_node_id":"0.0-18.0","user":"mike"},{"annotation":"good","response":90,"config":19,"stimulus":"test_stims/19.webm","trial_type":"custom-video-form-inputs","trial_index":19,"time_elapsed":384756,"internal_node_id":"0.0-19.0","user":"mike"},{"annotation":"good","response":65,"config":20,"stimulus":"test_stims/20.webm","trial_type":"custom-video-form-inputs","trial_index":20,"time_elapsed":393570,"internal_node_id":"0.0-20.0","user":"mike"}]
