[{"annotation":"good","response":45,"config":81,"stimulus":"test_stims/81.webm","trial_type":"custom-video-form-inputs","trial_index":1,"time_elapsed":14107,"internal_node_id":"0.0-1.0","user":"mike"},{"annotation":"good","response":25,"config":82,"stimulus":"test_stims/82.webm","trial_type":"custom-video-form-inputs","trial_index":2,"time_elapsed":23426,"internal_node_id":"0.0-2.0","user":"mike"},{"annotation":"good","response":45,"config":83,"stimulus":"test_stims/83.webm","trial_type":"custom-video-form-inputs","trial_index":3,"time_elapsed":48180,"internal_node_id":"0.0-3.0","user":"mike"},{"annotation":"good","response":50,"config":84,"stimulus":"test_stims/84.webm","trial_type":"custom-video-form-inputs","trial_index":4,"time_elapsed":56780,"internal_node_id":"0.0-4.0","user":"mike"},{"annotation":"good","response":25,"config":85,"stimulus":"test_stims/85.webm","trial_type":"custom-video-form-inputs","trial_index":5,"time_elapsed":99029,"internal_node_id":"0.0-5.0","user":"mike"},{"annotation":"good","response":50,"config":86,"stimulus":"test_stims/86.webm","trial_type":"custom-video-form-inputs","trial_index":6,"time_elapsed":108686,"internal_node_id":"0.0-6.0","user":"mike"},{"annotation":"good","response":45,"config":87,"stimulus":"test_stims/87.webm","trial_type":"custom-video-form-inputs","trial_index":7,"time_elapsed":118214,"internal_node_id":"0.0-7.0","user":"mike"},{"annotation":"good","response":55,"config":88,"stimulus":"test_stims/88.webm","trial_type":"custom-video-form-inputs","trial_index":8,"time_elapsed":127958,"internal_node_id":"0.0-8.0","user":"mike"},{"annotation":"good","response":65,"config":89,"stimulus":"test_stims/89.webm","trial_type":"custom-video-form-inputs","trial_index":9,"time_elapsed":143070,"internal_node_id":"0.0-9.0","user":"mike"},{"annotation":"good","response":70,"config":90,"stimulus":"test_stims/90.webm","trial_type":"custom-video-form-inputs","trial_index":10,"time_elapsed":154197,"internal_node_id":"0.0-10.0","user":"mike"},{"annotation":"good","response":75,"config":91,"stimulus":"test_stims/91.webm","trial_type":"custom-video-form-inputs","trial_index":11,"time_elapsed":164135,"internal_node_id":"0.0-11.0","user":"mike"},{"annotation":"good","response":80,"config":92,"stimulus":"test_stims/92.webm","trial_type":"custom-video-form-inputs","trial_index":12,"time_elapsed":175453,"internal_node_id":"0.0-12.0","user":"mike"},{"annotation":"good","response":2,"config":93,"stimulus":"test_stims/93.webm","trial_type":"custom-video-form-inputs","trial_index":13,"time_elapsed":186062,"internal_node_id":"0.0-13.0","user":"mike"},{"annotation":"good","response":80,"config":94,"stimulus":"test_stims/94.webm","trial_type":"custom-video-form-inputs","trial_index":14,"time_elapsed":197198,"internal_node_id":"0.0-14.0","user":"mike"},{"annotation":"good","response":70,"config":95,"stimulus":"test_stims/95.webm","trial_type":"custom-video-form-inputs","trial_index":15,"time_elapsed":206678,"internal_node_id":"0.0-15.0","user":"mike"},{"annotation":"good","response":65,"config":96,"stimulus":"test_stims/96.webm","trial_type":"custom-video-form-inputs","trial_index":16,"time_elapsed":217400,"internal_node_id":"0.0-16.0","user":"mike"},{"annotation":"good","response":75,"config":97,"stimulus":"test_stims/97.webm","trial_type":"custom-video-form-inputs","trial_index":17,"time_elapsed":227849,"internal_node_id":"0.0-17.0","user":"mike"},{"annotation":"good","response":70,"config":98,"stimulus":"test_stims/98.webm","trial_type":"custom-video-form-inputs","trial_index":18,"time_elapsed":238104,"internal_node_id":"0.0-18.0","user":"mike"},{"annotation":"good","response":60,"config":99,"stimulus":"test_stims/99.webm","trial_type":"custom-video-form-inputs","trial_index":19,"time_elapsed":247601,"internal_node_id":"0.0-19.0","user":"mike"},{"annotation":"good","response":55,"config":100,"stimulus":"test_stims/100.webm","trial_type":"custom-video-form-inputs","trial_index":20,"time_elapsed":257217,"internal_node_id":"0.0-20.0","user":"mike"}]
