[{"annotation":"good","response":80,"config":21,"stimulus":"test_stims/21.webm","trial_type":"custom-video-form-inputs","trial_index":1,"time_elapsed":84750,"internal_node_id":"0.0-1.0","user":"mike"},{"annotation":"good","response":55,"config":22,"stimulus":"test_stims/22.webm","trial_type":"custom-video-form-inputs","trial_index":2,"time_elapsed":94828,"internal_node_id":"0.0-2.0","user":"mike"},{"annotation":"good","response":65,"config":23,"stimulus":"test_stims/23.webm","trial_type":"custom-video-form-inputs","trial_index":3,"time_elapsed":105430,"internal_node_id":"0.0-3.0","user":"mike"},{"annotation":"good","response":95,"config":24,"stimulus":"test_stims/24.webm","trial_type":"custom-video-form-inputs","trial_index":4,"time_elapsed":115318,"internal_node_id":"0.0-4.0","user":"mike"},{"annotation":"good","response":35,"config":25,"stimulus":"test_stims/25.webm","trial_type":"custom-video-form-inputs","trial_index":5,"time_elapsed":126125,"internal_node_id":"0.0-5.0","user":"mike"},{"annotation":"good","response":55,"config":26,"stimulus":"test_stims/26.webm","trial_type":"custom-video-form-inputs","trial_index":6,"time_elapsed":143726,"internal_node_id":"0.0-6.0","user":"mike"},{"annotation":"good","response":65,"config":27,"stimulus":"test_stims/27.webm","trial_type":"custom-video-form-inputs","trial_index":7,"time_elapsed":152799,"internal_node_id":"0.0-7.0","user":"mike"},{"annotation":"good","response":45,"config":28,"stimulus":"test_stims/28.webm","trial_type":"custom-video-form-inputs","trial_index":8,"time_elapsed":161567,"internal_node_id":"0.0-8.0","user":"mike"},{"annotation":"good","response":80,"config":29,"stimulus":"test_stims/29.webm","trial_type":"custom-video-form-inputs","trial_index":9,"time_elapsed":171687,"internal_node_id":"0.0-9.0","user":"mike"},{"annotation":"good","response":85,"config":30,"stimulus":"test_stims/30.webm","trial_type":"custom-video-form-inputs","trial_index":10,"time_elapsed":182103,"internal_node_id":"0.0-10.0","user":"mike"},{"annotation":"good","response":45,"config":31,"stimulus":"test_stims/31.webm","trial_type":"custom-video-form-inputs","trial_index":11,"time_elapsed":191143,"internal_node_id":"0.0-11.0","user":"mike"},{"annotation":"good","response":55,"config":32,"stimulus":"test_stims/32.webm","trial_type":"custom-video-form-inputs","trial_index":12,"time_elapsed":202222,"internal_node_id":"0.0-12.0","user":"mike"},{"annotation":"good","response":45,"config":33,"stimulus":"test_stims/33.webm","trial_type":"custom-video-form-inputs","trial_index":13,"time_elapsed":213152,"internal_node_id":"0.0-13.0","user":"mike"},{"annotation":"good","response":90,"config":34,"stimulus":"test_stims/34.webm","trial_type":"custom-video-form-inputs","trial_index":14,"time_elapsed":223439,"internal_node_id":"0.0-14.0","user":"mike"},{"annotation":"good","response":95,"config":35,"stimulus":"test_stims/35.webm","trial_type":"custom-video-form-inputs","trial_index":15,"time_elapsed":246832,"internal_node_id":"0.0-15.0","user":"mike"},{"annotation":"good","response":95,"config":36,"stimulus":"test_stims/36.webm","trial_type":"custom-video-form-inputs","trial_index":16,"time_elapsed":257385,"internal_node_id":"0.0-16.0","user":"mike"},{"annotation":"good","response":70,"config":37,"stimulus":"test_stims/37.webm","trial_type":"custom-video-form-inputs","trial_index":17,"time_elapsed":266865,"internal_node_id":"0.0-17.0","user":"mike"},{"annotation":"good","response":75,"config":38,"stimulus":"test_stims/38.webm","trial_type":"custom-video-form-inputs","trial_index":18,"time_elapsed":276666,"internal_node_id":"0.0-18.0","user":"mike"},{"annotation":"good","response":85,"config":39,"stimulus":"test_stims/39.webm","trial_type":"custom-video-form-inputs","trial_index":19,"time_elapsed":288787,"internal_node_id":"0.0-19.0","user":"mike"},{"annotation":"good","response":65,"config":40,"stimulus":"test_stims/40.webm","trial_type":"custom-video-form-inputs","trial_index":20,"time_elapsed":297857,"internal_node_id":"0.0-20.0","user":"mike"}]
