[{"annotation":"good","response":95,"config":21,"stimulus":"test_stims/21.webm","trial_type":"custom-video-form-inputs","trial_index":1,"time_elapsed":17808,"internal_node_id":"0.0-1.0","user":"sonia"},{"annotation":"good","response":65,"config":22,"stimulus":"test_stims/22.webm","trial_type":"custom-video-form-inputs","trial_index":2,"time_elapsed":28915,"internal_node_id":"0.0-2.0","user":"sonia"},{"annotation":"good","response":85,"config":23,"stimulus":"test_stims/23.webm","trial_type":"custom-video-form-inputs","trial_index":3,"time_elapsed":40827,"internal_node_id":"0.0-3.0","user":"sonia"},{"annotation":"good","response":85,"config":24,"stimulus":"test_stims/24.webm","trial_type":"custom-video-form-inputs","trial_index":4,"time_elapsed":50123,"internal_node_id":"0.0-4.0","user":"sonia"},{"annotation":"good","response":75,"config":25,"stimulus":"test_stims/25.webm","trial_type":"custom-video-form-inputs","trial_index":5,"time_elapsed":59990,"internal_node_id":"0.0-5.0","user":"sonia"},{"annotation":"good","response":90,"config":26,"stimulus":"test_stims/26.webm","trial_type":"custom-video-form-inputs","trial_index":6,"time_elapsed":69262,"internal_node_id":"0.0-6.0","user":"sonia"},{"annotation":"good","response":80,"config":27,"stimulus":"test_stims/27.webm","trial_type":"custom-video-form-inputs","trial_index":7,"time_elapsed":80376,"internal_node_id":"0.0-7.0","user":"sonia"},{"annotation":"good","response":5,"config":28,"stimulus":"test_stims/28.webm","trial_type":"custom-video-form-inputs","trial_index":8,"time_elapsed":89288,"internal_node_id":"0.0-8.0","user":"sonia"},{"annotation":"good","response":20,"config":29,"stimulus":"test_stims/29.webm","trial_type":"custom-video-form-inputs","trial_index":9,"time_elapsed":98116,"internal_node_id":"0.0-9.0","user":"sonia"},{"annotation":"good","response":65,"config":30,"stimulus":"test_stims/30.webm","trial_type":"custom-video-form-inputs","trial_index":10,"time_elapsed":109983,"internal_node_id":"0.0-10.0","user":"sonia"},{"annotation":"good","response":5,"config":31,"stimulus":"test_stims/31.webm","trial_type":"custom-video-form-inputs","trial_index":11,"time_elapsed":117858,"internal_node_id":"0.0-11.0","user":"sonia"},{"annotation":"good","response":2,"config":32,"stimulus":"test_stims/32.webm","trial_type":"custom-video-form-inputs","trial_index":12,"time_elapsed":129566,"internal_node_id":"0.0-12.0","user":"sonia"},{"annotation":"good","response":5,"config":33,"stimulus":"test_stims/33.webm","trial_type":"custom-video-form-inputs","trial_index":13,"time_elapsed":139062,"internal_node_id":"0.0-13.0","user":"sonia"},{"annotation":"good","response":25,"config":34,"stimulus":"test_stims/34.webm","trial_type":"custom-video-form-inputs","trial_index":14,"time_elapsed":149537,"internal_node_id":"0.0-14.0","user":"sonia"},{"annotation":"good","response":50,"config":35,"stimulus":"test_stims/35.webm","trial_type":"custom-video-form-inputs","trial_index":15,"time_elapsed":158339,"internal_node_id":"0.0-15.0","user":"sonia"},{"annotation":"good","response":70,"config":36,"stimulus":"test_stims/36.webm","trial_type":"custom-video-form-inputs","trial_index":16,"time_elapsed":168642,"internal_node_id":"0.0-16.0","user":"sonia"},{"annotation":"good","response":25,"config":37,"stimulus":"test_stims/37.webm","trial_type":"custom-video-form-inputs","trial_index":17,"time_elapsed":181335,"internal_node_id":"0.0-17.0","user":"sonia"},{"annotation":"good","response":15,"config":38,"stimulus":"test_stims/38.webm","trial_type":"custom-video-form-inputs","trial_index":18,"time_elapsed":193261,"internal_node_id":"0.0-18.0","user":"sonia"},{"annotation":"good","response":20,"config":39,"stimulus":"test_stims/39.webm","trial_type":"custom-video-form-inputs","trial_index":19,"time_elapsed":205254,"internal_node_id":"0.0-19.0","user":"sonia"},{"annotation":"good","response":35,"config":40,"stimulus":"test_stims/40.webm","trial_type":"custom-video-form-inputs","trial_index":20,"time_elapsed":216080,"internal_node_id":"0.0-20.0","user":"sonia"}]